PressureSensor 0,PressureSensor 1,PressureSensor 2,PressureSensor 3,PressureSensor 4,PressureSensor 5,PressureSensor 6,PressureSensor 7,PressureSensor 8,PressureSensor 9,PressureSensor 10,PressureSensor 11,PressureSensor 12,PressureSensor 13,PressureSensor 14,PressureSensor 15,PressureSensor 16,PressureSensor 17,PressureSensor 18,PressureSensor 19,PressureSensor 20,PressureSensor 21,PressureSensor 22,PressureSensor 23,PressureSensor 24,PressureSensor 25,PressureSensor 26,PressureSensor 27,PressureSensor 28,PressureSensor 29,PressureSensor 30,PressureSensor 31,AccelerometerX,AccelerometerY,AccelerometerZ,GyroscopeX,GyroscopeY,GyroscopeZ,copX,copY,sumP
638,1161,1376,731,1690,1271,1331,722,637,903,568,176,160,20,20,20,1637,1284,1528,2419,1497,1965,2064,2639,619,276,303,93,102,328,20,20,-1149,2408,7959,216,730,-100,99.11079807215252,344.4424835211567,28218
604,1134,1371,713,1771,1292,1359,740,668,935,593,182,166,20,20,20,1545,1250,1476,2385,1403,1901,1991,2585,667,297,328,101,101,345,20,20,-1097,2368,7906,5,683,-170,99.24311680891331,340.3317858800843,28003
589,1117,1348,711,1850,1339,1398,788,712,971,636,208,180,20,20,21,1448,1194,1430,2327,1318,1829,1934,2538,727,331,358,115,105,360,20,20,-1128,2343,7923,-128,528,-229,99.4212145054002,334.92924325870825,27962
560,1087,1318,751,1893,1399,1467,855,778,1028,681,239,207,20,21,21,1328,1130,1383,2222,1234,1727,1829,2442,796,371,395,134,116,383,20,21,-1181,2233,7994,-191,445,-275,99.72892734060883,327.679817633544,27856
578,1059,1275,812,1942,1477,1544,910,836,1091,730,267,255,20,21,21,1190,1061,1331,2098,1131,1598,1747,2360,861,403,438,153,125,424,20,21,-1222,2208,7993,-180,419,-264,100.10541746105974,319.6807079391345,27799
578,1037,1223,864,1971,1560,1611,986,912,1135,789,320,330,20,21,21,1045,1013,1294,1953,1033,1492,1676,2272,939,442,473,203,130,460,21,21,-1222,2208,7993,-180,419,-264,100.2933201652002,310.9955647333453,27845
587,1002,1179,908,2041,1633,1624,1070,980,1186,837,403,374,36,21,21,906,968,1241,1812,936,1359,1751,2169,1020,483,522,253,137,506,23,22,-1270,2144,7996,-101,378,-231,100.27682970367728,302.4618529096751,28010
585,969,1138,965,2068,1681,1560,1172,1078,1253,887,456,441,67,23,21,763,914,1188,1665,834,1221,1516,2056,1105,537,572,292,172,573,21,22,-1458,2202,8244,-63,453,-251,100.50724429264784,292.10753190724427,27815
606,906,1088,1014,2128,1732,1856,1328,1160,1320,958,562,497,85,21,46,613,845,1113,1495,708,1077,1532,1860,1187,633,632,369,205,681,21,24,-1247,2176,8044,-114,548,-312,100.75968129460816,279.6176595293619,28302
606,853,1018,1030,2175,1808,1988,1513,1294,1385,1047,678,559,93,21,63,428,759,1031,1263,564,908,1304,1612,1261,716,708,476,251,795,21,24,-1253,2155,8020,-238,733,-404,101.10631105762424,264.3372681580065,28252
600,787,926,1083,2189,1886,2169,1779,1405,1447,1154,800,658,128,21,73,236,667,925,977,412,722,1104,1331,1385,835,799,597,317,878,21,27,-1253,2155,8020,-238,733,-404,101.3903415907968,246.98154421624676,28338
582,696,833,1102,2259,1982,2390,2079,1517,1523,1275,961,732,159,21,100,102,544,806,687,215,482,871,955,1460,981,890,762,380,1001,21,30,-1336,2059,8275,-278,1099,-501,101.93341080357771,227.4175117966054,28398
517,568,712,1126,2322,2078,2611,2380,1564,1616,1454,1145,819,199,21,121,19,444,628,296,45,244,594,609,1554,1139,1009,950,439,1096,21,35,-1511,2184,8343,-216,1630,-588,102.18112775330395,206.87779735682815,28375
411,374,496,1088,2286,2109,2881,2653,1687,1747,1698,1230,900,254,21,158,19,303,401,53,19,81,228,267,1617,1328,1185,1155,499,1194,22,57,-1417,2307,8451,-379,2407,-767,101.68570775131064,187.82314133915065,28421
296,223,175,970,2170,2110,3053,2879,1725,1887,1995,1287,949,303,22,222,19,129,181,19,19,19,144,20,1710,1514,1367,1368,578,1265,31,78,-1716,2245,8566,-688,3349,-1030,100.1324189786612,174.10171615553313,28727
129,41,34,781,2030,2017,2856,2848,1815,1996,2166,1371,1048,335,32,275,19,33,31,19,19,19,21,20,1777,1650,1456,1505,662,1350,30,121,-1779,1719,8746,-661,4933,-1790,97.8693082158142,164.36160808250895,28506
33,20,20,566,1876,1921,2901,2778,1867,1977,2200,1436,1117,397,31,367,19,19,19,19,18,19,33,20,1819,1707,1458,1675,773,1404,31,161,-1779,1719,8746,-661,4933,-1790,96.30972788404586,160.3379498972161,28701
20,20,20,262,1749,1816,2953,2734,1878,1937,2215,1537,1209,449,22,395,19,19,19,19,18,19,21,20,1823,1766,1447,1877,840,1458,22,209,-2414,2729,8845,-784,6648,-2041,94.95696237678744,157.13553380535888,28812
20,20,20,23,1634,1714,2750,2640,1871,1921,2246,1602,1247,512,23,455,19,19,19,19,18,19,22,20,1833,1793,1407,1974,916,1499,23,229,-2738,2407,9511,-1228,9650,-2205,93.58730325656396,153.92543905773476,28527
20,20,20,21,1491,1605,2276,2581,1861,1881,2241,1554,1321,569,24,525,19,19,19,19,18,18,24,20,1834,1821,1392,2019,971,1568,25,246,-2408,2471,10477,-1567,14205,-2870,91.99511447115042,150.90717495185794,28042
20,20,20,21,1347,1410,1577,2497,1862,1832,2280,1538,1403,622,27,575,19,19,19,19,19,19,26,20,1850,1867,1356,2048,1032,1708,26,253,-3201,3816,11646,-1444,18048,-4180,89.64355965046983,146.8513765493035,27351
20,20,20,21,1208,1187,1193,2350,1842,1763,2255,1478,1471,670,28,657,19,19,19,19,18,19,27,20,1856,1901,1384,2053,1087,1834,29,277,-5161,4823,12895,-3082,22780,-6196,87.46966073830518,143.59034523987447,26764
20,20,20,22,1184,1107,786,2063,1781,1619,2154,1447,1453,637,29,798,19,20,19,19,19,19,31,21,1850,1960,1492,2044,1108,1812,32,346,-5161,4823,12895,-3082,22780,-6196,85.19407729952603,141.14413702747487,25951
20,20,20,22,1165,1007,367,1595,1599,1537,1936,1223,1380,650,31,959,19,20,19,20,18,19,30,22,1927,1906,1619,1999,1214,1830,30,443,-9172,5525,19707,-5134,26661,-8875,81.88082786021243,137.77874402010866,24666
20,21,20,26,1044,950,31,1099,1341,1381,1660,866,1282,378,31,1019,20,22,20,22,19,20,31,23,1960,1777,1704,1524,1395,1854,32,547,-13185,7097,25695,-5201,27554,-10621,78.2428068115091,135.1446993992502,22139
22,22,21,31,911,510,31,634,955,1284,1410,553,1060,90,32,475,22,24,21,27,20,24,32,26,1738,1269,1456,781,1283,1810,32,453,-11488,6936,24641,-2437,26369,-10840,75.49624831467261,137.5435254118061,17059
26,25,24,39,881,106,32,31,46,1112,1103,31,867,26,31,31,27,27,26,31,23,28,32,31,998,416,560,32,541,1157,31,49,-2401,8571,16671,-777,21958,-11237,75.13853919239905,150.39524940617576,8420
31,30,30,40,774,31,32,31,31,212,126,30,187,30,32,31,31,31,31,30,29,31,31,32,32,32,31,31,30,32,31,31,-2401,8571,16671,-777,21958,-11237,94.49402023919043,202.55634774609013,2174
31,32,31,41,31,32,32,31,31,32,31,36,32,31,31,32,31,31,31,33,32,31,31,31,31,31,32,31,32,31,31,32,7391,11040,15697,2983,16514,-11835,92.3621197252208,232.0471050049068,1019
31,31,31,40,32,32,32,31,31,32,32,36,32,32,32,32,32,31,31,34,32,31,31,31,31,31,31,31,32,31,32,31,634,14540,24640,7719,10855,-12538,92.38111545988258,232.05381604696677,1022
32,31,31,40,33,31,31,32,31,32,31,36,43,31,32,31,32,31,31,31,31,32,32,32,31,31,32,31,31,31,31,31,10308,4582,15187,7198,-4124,-8701,92.07580174927114,230.6122448979592,1029
31,31,31,40,209,31,31,32,31,32,31,31,30,31,31,31,32,31,31,31,30,32,31,31,31,31,32,31,31,31,31,31,5025,4069,7591,1568,-10855,-5112,93.26818950930624,228.6818950930626,1182
31,32,31,40,204,31,32,31,31,31,32,30,30,31,31,31,31,31,31,31,31,31,31,32,31,31,32,32,30,32,31,32,4596,5748,5377,-1414,-11422,-2451,93.1055979643766,228.86429177268872,1179
31,31,31,40,268,32,32,32,31,31,31,30,30,31,31,31,32,31,31,31,31,32,31,31,31,31,31,31,31,32,31,31,4596,5748,5377,-1414,-11422,-2451,93.60708534621578,227.80394524959743,1242
31,31,32,40,310,31,31,32,31,31,31,30,30,32,31,32,31,31,31,31,30,31,31,32,32,32,31,30,30,32,31,31,3225,7338,6230,1758,-12767,306,93.85736554949338,226.6527669524552,1283
31,31,31,40,337,31,32,31,32,31,32,31,30,31,31,31,31,32,31,31,30,31,32,31,32,31,31,31,30,31,32,32,1666,5095,5747,6344,-14283,3239,93.86852134146342,226.06935975609755,1312
31,31,31,40,413,32,31,31,32,31,31,31,29,32,31,32,31,31,31,31,30,31,32,31,32,31,32,31,29,31,31,31,311,3369,6783,7197,-14785,6046,94.3490974729242,225.056678700361,1385
32,32,31,40,457,31,32,31,31,31,31,32,30,31,31,31,31,31,31,32,30,32,32,31,31,32,31,31,30,31,31,31,-217,3839,9132,6488,-15459,8168,94.50872905027931,224.95286312849163,1432
31,31,31,40,482,32,32,31,31,31,32,31,29,31,31,31,31,31,31,31,29,32,31,31,31,31,32,31,30,31,32,31,-1506,4022,11358,7555,-17098,9423,94.55092911218168,224.0557467309016,1453
31,31,31,41,535,32,32,31,31,31,31,30,29,32,31,32,32,31,31,30,29,32,31,31,31,32,31,31,29,31,32,31,-1506,4022,11358,7555,-17098,9423,94.80212483399734,223.4233067729084,1506
31,31,31,40,572,32,32,31,31,31,32,31,30,31,32,32,31,32,32,31,29,31,31,32,31,31,31,31,29,31,31,31,-3296,2961,12443,8920,-18639,10003,94.99611650485436,223.09644012944983,1545
31,32,32,41,656,32,31,31,31,31,31,30,29,31,31,31,31,31,31,31,30,31,32,31,32,31,31,31,28,31,31,31,-4859,2751,14441,9147,-19418,10006,95.26215384615384,222.74553846153847,1625
32,31,32,41,731,32,32,31,31,32,31,31,29,31,31,32,31,31,32,30,28,31,31,32,32,31,31,31,29,32,32,31,-6395,3247,17094,9275,-19850,9504,95.48533724340176,221.18387096774197,1705
31,31,31,40,762,31,32,31,31,31,32,30,28,31,32,31,32,32,31,31,28,31,31,31,32,32,31,31,29,31,31,32,-9762,3712,19231,8873,-20209,9702,95.47053726169844,221.03523974581168,1731
31,31,32,40,784,32,31,31,32,31,32,31,29,31,31,31,31,32,31,30,29,31,32,32,31,31,31,31,28,31,32,31,-14672,4459,21339,7905,-20311,11506,95.56385404789052,221.10946408209807,1754
31,32,32,41,833,31,31,31,31,32,32,31,28,31,32,31,31,31,32,31,29,31,31,31,31,32,31,31,28,31,32,31,-14672,4459,21339,7905,-20311,11506,95.71230598669624,220.71978935698448,1804
32,31,31,40,922,32,32,31,31,31,32,31,28,31,31,31,31,31,31,31,28,31,31,31,32,31,32,31,28,31,31,31,-21623,3751,21284,7704,-19914,13244,95.97141344626786,219.7220751720487,1889
31,32,31,40,1017,31,32,31,31,32,31,30,28,31,31,31,31,31,31,31,28,31,32,32,31,31,31,31,28,32,31,32,-26155,1366,13824,6171,-17351,12764,96.11995967741936,219.2016129032258,1984
31,31,32,40,1123,32,33,31,31,136,104,30,27,32,32,31,31,31,31,30,28,31,31,31,31,31,31,30,28,31,31,32,-29115,-461,6144,6078,-12806,9581,96.59580573951436,214.65827814569536,2265
32,30,30,41,1247,31,155,31,31,297,311,30,27,31,31,32,31,30,30,31,27,32,31,31,31,30,31,31,27,32,31,31,-32764,-6675,3204,10211,-7968,5885,97.95198329853862,209.84411969380653,2874
32,30,30,40,1405,32,164,31,32,447,510,31,26,32,30,31,32,30,29,31,27,31,30,31,31,30,29,30,27,32,30,31,-32764,-6675,3204,10211,-7968,5885,97.67922576832152,205.909426713948,3384
31,30,31,40,1282,31,216,31,31,402,238,30,27,32,30,31,31,30,31,31,27,32,30,31,31,30,31,31,27,31,30,31,-32764,-15375,-520,6895,-2055,4132,100.01067378252168,209.92394929953304,2998
31,31,33,41,923,32,246,29,31,44,30,31,28,31,31,30,31,36,503,30,28,31,30,655,31,32,29,31,28,31,30,28,-29423,-9514,569,-4512,8837,1910,96.57860262008734,298.36478477854024,3206
25,31,934,29,406,28,225,23,24,31,21,24,25,27,31,23,2193,70,1848,2285,1867,1605,140,2562,19,30,21,23,23,25,30,22,7426,226,24989,-8091,11510,-510,94.14369461486028,435.09911383776415,14670
22,133,1319,24,45,180,143,21,21,26,18,21,22,21,25,21,2954,1263,2100,2977,2797,2654,1709,3140,19,29,20,21,21,21,24,20,-2692,-1090,11445,-5511,10207,-3040,90.21490082909624,438.7573633823462,21831
22,647,1425,23,127,340,308,21,20,230,18,20,21,20,22,20,3120,1653,2124,3183,2884,2862,2370,3267,19,22,20,20,20,20,22,20,-5633,3617,25351,-886,13080,-4841,91.2911481332798,430.4356884785227,24910
22,1348,1590,23,336,528,371,47,20,391,18,20,20,20,21,20,3180,1443,2053,3250,2753,2777,2638,3248,19,20,19,20,20,19,21,20,-5633,3617,25351,-886,13080,-4841,93.45366039170943,422.7122076440388,26295
329,1423,1641,87,731,984,714,328,41,610,118,20,20,20,20,20,2781,1483,1950,3195,2420,2414,2429,3015,72,19,19,20,20,19,20,20,-5581,11546,17021,-2743,9963,-3485,97.42789423005703,402.6431745796608,27002
613,1357,1611,360,1271,1288,1030,528,188,729,216,20,20,20,20,20,2343,1504,1918,2975,2062,2241,2321,2891,237,19,19,20,19,20,20,20,-2400,2371,13038,-6286,6425,-1420,99.835888252149,382.6950393982808,27920
758,1281,1517,577,1512,1355,1274,656,415,815,391,45,20,20,20,20,2002,1439,1804,2798,1926,2169,2183,2796,385,103,91,20,19,91,20,20,-2176,2134,9698,-3998,2276,-575,100.38313713124518,367.2271739892089,28542
787,1217,1408,687,1602,1358,1325,723,503,849,511,119,20,20,20,20,1826,1414,1699,2593,1879,2103,2174,2753,486,217,193,122,19,174,20,20,-1632,2224,8839,-1641,338,-261,99.57835833824193,357.1658812930945,28861
817,1173,1364,723,1641,1348,1334,757,564,867,564,168,22,20,20,20,1708,1375,1644,2467,1847,2045,2322,2733,553,295,252,172,20,247,21,20,-1242,2260,8416,-593,109,-161,98.83411736428252,351.52473989630187,29123
832,1152,1338,756,1670,1359,1384,779,607,898,599,192,48,20,20,20,1608,1350,1597,2389,1778,2003,2126,2705,595,323,291,192,44,282,20,20,-1242,2260,8416,-593,109,-161,98.98494671862606,346.4090595578853,28997
848,1135,1328,793,1702,1401,1441,813,658,928,623,239,76,20,20,20,1516,1314,1566,2313,1696,1952,2072,2665,629,335,308,196,64,294,20,20,-1288,2241,8519,-51,217,-135,99.3048439924151,341.6544388898466,29005
876,1135,1326,836,1741,1450,1489,856,688,962,645,264,98,20,20,20,1429,1281,1537,2242,1612,1882,2014,2608,654,335,316,193,73,318,20,20,-1198,2403,8281,231,391,-124,99.79442334254144,337.3182147790056,28960
898,1134,1331,876,1806,1515,1565,919,726,1006,670,291,110,20,20,21,1316,1230,1484,2161,1496,1787,1929,2515,696,341,326,199,78,322,20,20,-1072,2443,8071,237,579,-166,100.50707645344804,331.7191619259054,28828
904,1123,1326,907,1909,1596,1635,995,784,1053,709,348,134,20,20,21,1184,1170,1422,2044,1338,1664,1825,2397,750,355,344,206,89,352,20,21,-1176,2436,8051,108,649,-200,101.2551369265655,323.9239665096808,28665
902,1100,1317,960,2011,1681,1734,1114,878,1107,758,406,156,36,20,21,1028,1108,1342,1904,1172,1497,1708,2251,805,381,374,213,105,398,20,21,-1176,2436,8051,108,649,-200,102.157599551318,314.1593171620864,28528
869,1077,1297,1017,2125,1766,1830,1219,974,1182,805,455,194,59,21,21,885,1029,1277,1749,1004,1324,1568,2098,874,405,410,244,110,467,20,21,-1178,2450,8010,-21,656,-233,102.93312438371602,303.5889561910128,28396
845,1053,1256,1063,2191,1855,1933,1336,1079,1252,860,519,268,62,21,21,707,940,1222,1608,844,1164,1429,1931,955,434,449,263,139,497,20,21,-1312,2349,8016,-72,579,-281,103.66471296525836,292.53984134291886,28237
822,1026,1214,1113,2262,1936,2030,1451,1147,1324,911,565,334,81,21,21,574,873,1170,1472,695,1023,1313,1782,1020,451,480,291,150,534,20,22,-1243,2408,7946,-111,465,-315,104.36511660978384,282.70723122866895,28128
804,989,1178,1179,2323,2000,2141,1563,1231,1395,967,621,387,81,21,21,432,808,1118,1305,589,900,1169,1641,1106,493,505,315,149,580,20,22,-1355,2297,8038,-145,453,-336,104.93567532884184,272.9588635796528,28053
791,950,1138,1224,2346,2083,2233,1676,1305,1452,1017,680,456,88,21,37,315,752,1075,1138,481,776,1065,1471,1158,528,536,368,171,623,21,23,-1346,2277,7999,-65,400,-285,105.36963354525324,263.08447031930854,27998
780,917,1090,1262,2394,2141,2320,1805,1374,1489,1077,763,505,101,21,43,230,713,1038,982,381,666,979,1335,1186,562,566,421,190,662,21,23,-1346,2277,7999,-65,400,-285,105.78599707529337,254.3544245104683,28037
767,881,1042,1295,2424,2198,2399,1939,1443,1526,1137,841,552,113,21,55,146,668,973,849,267,547,901,1170,1233,618,605,448,223,707,21,23,-1294,2317,7950,41,424,-253,106.19245861872146,245.07311287100453,28032
737,828,982,1309,2438,2220,2464,2083,1493,1568,1214,934,623,125,21,65,76,627,914,688,182,465,848,1021,1304,680,662,512,250,780,21,24,-1330,2431,7943,-59,519,-310,106.0313942751616,235.84672206832872,28158
704,776,917,1325,2451,2224,2521,2211,1532,1614,1293,1007,676,140,21,77,43,574,834,517,103,383,789,869,1362,756,745,588,292,855,21,26,-1423,2297,8046,-165,590,-368,105.66963463853288,226.79002336614036,28246
660,713,842,1330,2454,2223,2608,2354,1584,1653,1378,1123,713,159,21,91,20,519,744,348,48,299,692,720,1412,853,813,677,332,929,21,27,-1385,2306,8179,-233,803,-416,105.3953808180536,217.45650564174892,28360
600,619,751,1296,2441,2221,2439,2508,1613,1699,1485,1232,760,190,22,107,19,445,627,191,21,193,707,531,1469,976,909,806,372,1009,22,28,-1393,2427,8177,-366,1110,-501,104.32056309170552,207.7093224530168,28308
501,470,594,1238,2402,2234,2869,2725,1664,1796,1655,1309,788,219,21,115,19,373,496,56,19,86,354,282,1531,1131,1032,939,412,1083,21,31,-1393,2427,8177,-366,1110,-501,104.3540312664676,194.83068680836115,28465
382,341,370,1128,2365,2235,3069,2882,1710,1861,1872,1324,830,247,22,141,19,246,319,19,19,19,126,78,1611,1291,1180,1127,456,1174,22,51,-1409,2434,8227,-532,1503,-656,103.2318474908887,182.69987033922064,28536
285,200,156,979,2244,2159,3166,2954,1752,1946,2077,1353,894,284,21,187,19,109,152,19,19,19,21,20,1682,1470,1305,1314,540,1244,30,60,-1620,2355,8441,-673,2181,-912,101.31448744769874,173.39464783821478,28680
127,44,29,799,2138,2060,3161,2891,1815,2021,2239,1410,968,319,21,248,19,46,27,19,19,19,21,20,1771,1593,1395,1462,605,1325,22,101,-1828,2135,8873,-489,3545,-1530,99.11967030673992,166.28954232454615,28754
43,20,20,621,2008,1965,3084,2842,1842,2016,2250,1450,1029,353,31,301,19,19,19,19,19,19,21,20,1807,1668,1398,1605,704,1397,22,137,-1982,2342,8803,-762,5371,-1802,97.5025896829811,162.47806590656285,28768
20,20,20,370,1876,1853,2998,2795,1883,1977,2266,1519,1090,422,22,336,18,19,19,19,19,19,21,20,1812,1713,1386,1777,809,1456,22,180,-1982,2342,8803,-762,5371,-1802,95.97212955240478,159.04694884626076,28776
20,20,20,93,1727,1725,2845,2734,1890,1946,2267,1622,1182,477,22,393,19,19,19,19,18,19,21,20,1814,1755,1358,1926,868,1516,23,215,-751,2740,9952,-1017,7185,-1900,94.49577100517266,155.4179714804977,28612
20,20,20,21,1598,1632,2406,2675,1876,1919,2315,1571,1247,528,26,436,18,19,19,19,19,18,25,20,1832,1787,1328,1986,932,1571,24,244,-2446,2022,9508,-1303,10453,-2198,92.83209683717298,152.4026303645593,28171
20,20,20,21,1455,1495,1869,2613,1868,1881,2338,1589,1334,577,26,491,19,19,19,19,18,19,25,20,1842,1834,1300,2009,992,1657,26,267,-3024,2777,10420,-1470,14773,-3014,91.10623781676414,148.98855678290377,27702
20,20,20,21,1294,1319,1367,2510,1851,1817,2345,1561,1411,623,27,544,19,19,19,19,19,19,27,20,1844,1898,1299,2036,1051,1775,27,282,-3803,4268,11240,-1216,18180,-4330,88.95881723998083,145.58933377576227,27123
20,20,20,21,1125,1138,730,2356,1853,1704,2267,1510,1474,644,30,630,19,19,19,19,19,19,31,20,1814,1967,1337,2097,1092,1887,31,318,-5341,5085,12306,-3200,23011,-6578,86.13325714285715,141.3871238095238,26250
20,20,20,21,1133,1056,613,1972,1794,1574,2122,1406,1450,621,29,819,19,20,19,19,19,19,29,21,1873,1998,1478,2085,1149,1907,30,416,-5341,5085,12306,-3200,23011,-6578,83.9190757052501,139.43112413177602,25771
20,20,20,22,1114,1004,322,1532,1614,1514,1944,1244,1367,609,30,924,19,20,19,20,19,19,30,21,1921,1899,1595,1962,1271,1873,31,564,-8347,6737,17415,-5558,27390,-9567,81.42149046088761,136.72954887523898,24583
20,21,20,26,1023,969,32,1054,1323,1376,1683,903,1238,299,31,915,20,22,20,23,19,21,31,22,1982,1746,1692,1530,1453,1886,31,788,-13890,7627,24529,-5296,28196,-11427,77.75808992303884,134.3216841442009,22219
21,22,21,30,890,630,31,682,1045,1270,1467,729,1062,61,31,414,22,25,22,26,20,23,32,26,1667,1182,1386,831,1289,1911,31,666,-12978,7011,22519,-1707,26461,-11507,76.90927981781952,136.04190150868203,17565
26,25,25,39,860,190,31,103,172,1074,1052,63,893,27,31,32,27,27,26,31,24,27,31,31,933,373,416,32,435,1015,31,55,-3414,7426,15000,699,21194,-11425,78.85662621061665,151.04027215888195,8157
32,30,31,40,777,32,32,31,31,265,32,30,98,31,32,31,31,31,31,31,29,31,32,32,31,31,31,31,29,31,31,31,11461,10374,15322,3752,14027,-11616,97.02952659834064,209.74524158125917,2049
31,31,32,40,31,31,31,32,32,32,31,36,31,32,32,31,31,31,31,33,31,31,31,31,32,31,31,30,31,31,31,31,11461,10374,15322,3752,14027,-11616,92.53254437869822,232.1533530571992,1014
31,31,31,41,31,31,32,31,31,32,32,36,32,32,31,32,31,31,31,33,31,31,31,31,31,32,31,30,32,32,31,31,-1674,14158,23157,6392,8177,-12010,92.3613569321534,231.63028515240904,1017
31,31,31,40,31,32,31,31,31,32,32,36,31,31,32,32,31,32,32,33,27,32,32,31,31,31,31,31,32,31,31,32,9188,4123,12554,6447,-4520,-8581,92.37487684729064,231.3182266009852,1015
31,32,32,40,34,31,31,32,31,31,32,36,31,31,32,32,31,31,32,33,31,31,32,31,31,31,31,31,32,31,31,32,3474,4053,6232,2349,-10188,-5505,92.36092066601373,232.21694417238,1021
31,31,32,40,32,31,31,32,31,31,31,36,31,31,31,32,31,31,31,33,31,31,32,32,31,32,31,31,31,31,31,31,3120,5562,4339,-55,-10526,-2717,92.33743842364532,232.70541871921185,1015
31,32,31,40,32,31,31,32,32,31,32,36,31,32,31,31,31,32,32,33,31,31,31,32,31,31,32,31,31,32,31,31,2095,6610,4922,2398,-11082,441,92.3631010794897,232.61432777232585,1019
31,32,32,40,31,31,31,31,31,31,32,36,31,32,31,31,32,31,31,30,31,31,32,31,31,31,32,30,31,31,31,32,2095,6610,4922,2398,-11082,441,92.2959486166008,232.23616600790515,1012
31,31,32,40,89,31,32,31,31,31,31,31,31,31,31,31,31,32,31,31,32,32,31,32,31,31,32,31,32,31,31,32,1287,4533,5891,6334,-11974,3631,92.32724719101124,231.71488764044943,1068
32,32,31,40,175,31,31,31,31,32,31,31,31,31,31,31,31,32,31,31,31,32,31,31,31,32,33,30,31,31,32,31,598,2723,7452,7011,-13102,6340,92.91717259323504,229.50693842150912,1153
31,31,31,41,236,31,31,31,31,31,31,30,31,31,32,31,31,31,31,30,30,32,32,31,32,31,31,30,31,32,31,31,18,3068,8715,5935,-14491,8276,93.30546357615894,227.81043046357613,1208
32,31,31,41,278,31,32,31,32,32,31,30,30,32,32,31,31,32,31,31,30,32,31,31,31,31,31,31,31,31,31,31,-1120,3244,9758,6261,-15977,9260,93.71212121212122,227.26594896331736,1254
31,31,31,41,294,32,31,31,31,31,32,31,30,31,31,31,32,31,31,31,30,31,31,31,31,31,32,30,31,31,31,31,-1120,3244,9758,6261,-15977,9260,93.80766192733016,227.07661927330173,1266
32,32,31,40,305,31,32,31,31,31,32,30,30,31,32,31,31,32,32,31,31,31,32,31,31,31,31,31,31,32,31,31,-2252,2976,11284,7538,-17196,9480,93.72308892355694,227.2890015600624,1282
31,32,31,41,425,31,32,31,31,31,31,29,30,32,31,32,31,32,31,31,29,32,31,31,32,32,31,31,30,31,31,31,-3644,2951,13377,8453,-18274,9194,94.31366237482118,224.94635193133047,1398
31,31,31,41,457,31,32,31,32,31,32,30,29,32,32,31,31,31,31,31,29,31,31,31,31,32,31,31,30,32,31,32,-5163,3426,15939,8968,-19493,8547,94.46713286713286,223.9451048951049,1430
31,31,31,40,479,32,31,31,31,31,31,31,30,32,31,32,31,31,32,30,30,31,31,32,31,32,32,30,30,31,31,32,-7556,4093,18269,9640,-20434,8178,94.55096418732782,223.9335399449036,1452
31,32,31,40,489,32,32,31,31,31,32,31,30,31,32,32,32,31,31,30,29,32,32,31,31,31,31,31,30,31,31,31,-13336,4194,20522,10106,-21139,8940,94.64661654135338,223.9904306220096,1463
31,32,31,41,507,32,32,31,31,31,32,31,30,31,31,31,31,31,32,30,29,31,31,32,32,31,31,30,29,31,32,31,-13336,4194,20522,10106,-21139,8940,94.77991886409735,223.8881000676133,1479
32,31,31,40,570,31,31,32,31,31,31,30,29,31,31,32,31,31,31,30,29,32,31,31,31,31,32,31,29,31,31,31,-21110,3295,19492,8288,-20868,11633,94.90826284970724,223.037410540013,1537
31,32,31,41,763,32,32,31,32,32,32,30,29,32,31,32,31,32,31,30,29,31,31,31,31,31,31,31,29,31,31,31,-26643,3097,13743,5001,-18285,13997,95.5971181556196,220.8951008645533,1735
32,31,31,40,898,31,32,31,31,32,32,31,29,32,31,31,31,31,31,30,28,32,32,31,31,31,31,31,28,31,32,31,-27239,560,7061,5630,-13004,13161,95.85377611140868,219.80342795929295,1867
31,31,32,40,992,32,32,31,31,101,32,31,28,31,32,31,30,31,31,31,28,31,32,31,31,30,31,31,28,31,32,31,-30101,-5438,4652,8796,-7457,10697,96.7783530571992,217.43910256410257,2028
31,30,31,41,1080,31,44,31,32,209,31,30,28,31,31,32,31,31,32,30,27,32,31,31,31,31,31,30,28,32,31,31,-32764,-10396,1906,5473,-2239,9486,97.99395432154051,214.6845051500224,2233
31,30,31,40,1017,32,158,32,32,179,31,30,28,32,31,31,30,31,31,30,28,31,31,31,31,31,32,31,28,31,30,31,-32764,-10396,1906,5473,-2239,9486,99.79582778517532,216.53040390590323,2253
31,31,32,40,602,31,238,31,31,31,31,30,29,32,30,31,31,31,52,30,29,32,30,97,31,31,31,31,29,31,31,30,-32764,-13046,-4345,-1942,6656,7778,99.6149085037675,235.26883745963403,1858
28,31,444,33,465,30,206,25,26,31,23,26,27,29,30,24,1725,31,1701,1737,1354,1035,32,2270,20,31,22,24,24,27,30,23,-4822,-3227,16065,-6393,13223,3117,94.54349705984087,428.7120373573158,11564
22,32,1207,25,22,50,173,21,22,28,18,21,22,22,26,21,2831,1140,2093,2840,2682,2597,1494,3042,19,26,20,21,21,22,25,21,2878,-5810,8511,-5889,9718,-819,89.73732182682052,440.60115873169786,20626
22,627,1408,24,102,239,300,21,21,28,18,20,21,21,22,20,3028,1704,2118,3094,2815,2853,2311,3202,19,22,20,20,21,20,22,20,-6937,1348,23501,-1357,14503,-4290,90.72017931661364,433.3004586208321,24203
22,1385,1586,24,412,445,363,22,20,290,18,20,21,20,21,20,3092,1476,2034,3196,2598,2738,2574,3259,19,20,19,20,20,20,21,20,-6937,1348,23501,-1357,14503,-4290,93.36579508037964,423.2570211117567,25815
546,1479,1627,174,911,1069,887,360,36,622,136,20,21,20,20,20,2552,1407,1938,3047,2182,2295,2352,2924,72,19,19,20,20,19,20,20,-5312,6898,19035,-2060,9921,-2458,98.78105682579876,395.7631823936844,26854
773,1372,1597,509,1415,1344,1009,620,295,780,260,21,20,20,21,20,2059,1427,1866,2788,1893,2109,2146,2757,284,19,25,20,19,97,20,20,-2277,3388,10016,-4431,4235,-893,100.790407239819,373.6820452488688,27625
838,1275,1459,692,1563,1362,1337,785,514,862,461,148,53,20,20,20,1765,1391,1751,2513,1789,2018,2132,2673,414,140,136,82,61,228,20,20,-2117,2289,9621,-2905,493,-469,100.5316551047579,355.6660535351412,28542
890,1210,1399,758,1565,1373,1373,814,604,893,552,244,117,20,20,20,1622,1373,1642,2384,1702,1971,2125,2668,529,227,223,142,127,299,20,20,-1519,2386,8817,-1305,-308,-230,99.82346332019635,346.29701652492565,28926
883,1163,1353,775,1590,1359,1402,825,660,916,604,295,166,42,20,21,1521,1349,1590,2291,1637,1934,2116,2657,594,292,281,177,144,336,20,20,-1101,2326,8421,-556,-15,-181,99.32874659869805,340.5113147108463,29033
871,1128,1318,811,1610,1384,1451,871,720,956,651,354,234,56,20,21,1391,1303,1536,2188,1540,1856,2066,2601,692,343,328,210,179,381,20,21,-1101,2326,8421,-556,-15,-181,99.1787125141699,332.8752361650235,29111
870,1108,1299,840,1647,1428,1506,938,816,996,685,414,286,63,20,26,1247,1267,1481,2088,1430,1779,2015,2521,751,362,362,218,202,404,20,21,-1328,2269,8528,-134,209,-208,99.4666609412573,325.74891789762967,29110
879,1094,1293,879,1712,1483,1573,1012,879,1039,719,463,330,72,20,30,1128,1228,1427,1993,1312,1680,1941,2425,802,379,385,231,211,442,20,21,-1153,2491,8391,161,421,-181,99.96876503333104,318.7326128788399,29102
880,1079,1282,914,1779,1535,1633,1095,943,1096,756,521,362,82,21,36,1010,1155,1382,1878,1182,1576,1855,2315,848,402,405,241,218,480,20,21,-1236,2465,8253,189,589,-201,100.5357389145576,311.29623819046964,29002
872,1059,1271,957,1869,1605,1710,1184,1023,1152,803,558,393,84,21,41,881,1091,1307,1767,1039,1451,1762,2188,904,427,429,259,227,514,20,21,-1224,2451,8158,93,711,-213,101.15388210045346,303.0872304337291,28889
831,1040,1262,986,1952,1677,1790,1278,1110,1217,857,611,437,91,20,42,738,1004,1225,1636,881,1306,1644,2047,982,463,460,289,237,561,20,22,-1213,2443,8108,-38,736,-237,101.72278520685332,293.42122858336813,28716
763,1009,1216,1017,2043,1775,1893,1410,1216,1284,920,656,474,97,21,46,585,908,1163,1492,722,1132,1496,1857,1068,509,499,328,245,615,21,22,-1213,2443,8108,-38,736,-237,102.3797628236615,282.1642340888359,28502
726,976,1184,1044,2142,1856,1973,1530,1297,1344,973,697,489,99,21,56,450,826,1094,1346,589,993,1395,1692,1147,558,536,387,264,661,20,22,-1249,2405,8062,-117,664,-286,102.777644696516,272.1507027864868,28387
679,920,1131,1072,2205,1911,2076,1643,1376,1395,1033,755,517,103,21,51,326,770,1038,1187,476,870,1255,1536,1222,610,577,431,270,709,21,22,-1273,2418,8003,-230,589,-339,103.13228516732842,262.3975645207033,28208
622,870,1079,1091,2257,1956,2165,1752,1451,1449,1090,821,551,109,21,54,221,717,986,1009,385,752,1133,1401,1299,674,625,483,285,769,21,23,-1295,2302,8056,-329,464,-339,103.24337683581663,252.75025781444472,28121
574,805,1015,1106,2292,1988,2243,1851,1496,1485,1157,881,603,117,21,64,146,674,937,858,290,638,1022,1257,1364,733,663,570,316,824,21,24,-1347,2243,8114,-246,505,-301,103.17219546994828,243.3481719279472,28035
538,764,960,1115,2318,2055,2319,1982,1548,1537,1220,974,630,126,21,70,80,595,888,714,202,528,938,1102,1432,790,705,621,325,869,21,24,-1347,2243,8114,-246,505,-301,103.47617007604156,234.3938274249402,28011
513,707,897,1144,2385,2073,2360,2114,1580,1575,1288,1048,662,142,21,80,44,561,820,554,106,450,1443,955,1479,861,767,673,340,928,21,25,-1357,2301,8052,-136,566,-296,102.51364621190942,229.52465403969808,28616
492,647,827,1154,2411,2099,2479,2216,1592,1590,1365,1129,718,150,21,99,20,527,755,375,59,368,768,800,1524,951,825,778,369,994,21,26,-1351,2333,8023,-155,599,-353,103.13726953000106,217.31052612881453,28149
454,572,746,1127,2379,2100,2526,2365,1594,1633,1446,1230,742,175,21,110,20,480,686,238,34,295,701,658,1567,1060,900,867,401,1065,21,28,-1400,2315,8051,-267,689,-412,102.68643107538684,209.4449205056478,28241
408,479,623,1093,2339,2096,2582,2514,1645,1667,1557,1288,797,191,21,125,19,413,608,113,20,207,602,493,1616,1179,990,1012,435,1104,21,31,-1439,2279,8173,-418,923,-499,101.9596648755656,200.40177813914028,28288
350,381,466,1015,2312,2099,2764,2676,1696,1723,1723,1318,827,228,21,145,19,341,490,41,19,117,430,259,1635,1309,1099,1179,470,1189,21,41,-1397,2402,8338,-571,1311,-618,101.33058127662572,189.99987677358027,28403
289,261,252,921,2236,2096,2935,2824,1695,1800,1913,1325,901,269,21,161,19,233,347,20,19,34,519,88,1695,1449,1222,1357,522,1257,29,64,-1397,2402,8338,-571,1311,-618,99.92524241476384,181.4549751503145,28773
187,141,104,782,2170,2045,3076,2904,1772,1887,2083,1356,918,297,21,226,19,108,183,19,19,19,46,20,1742,1587,1339,1501,593,1329,31,73,-1651,2262,8417,-714,1933,-833,99.18138266251704,170.2200405636955,28597
67,30,25,663,2034,1984,3094,2864,1811,1957,2222,1385,1025,328,31,265,19,39,31,19,19,19,32,20,1822,1697,1422,1613,670,1378,30,102,-1245,2243,8510,-776,2986,-1326,97.46834627572518,164.04065536093603,28717
27,20,20,484,1923,1929,3033,2808,1856,1944,2242,1418,1077,351,22,323,19,19,19,19,18,19,21,20,1834,1748,1423,1760,737,1429,22,126,-1867,2312,9130,-832,4442,-1532,96.21121560431904,160.98284569836295,28710
20,20,20,264,1818,1788,2960,2777,1861,1906,2251,1494,1071,407,22,345,19,19,19,19,19,19,21,20,1839,1790,1413,1893,830,1493,22,162,-2108,2286,8977,-698,5874,-1746,94.89346982984522,158.2709723629503,28621
20,20,20,60,1681,1715,2771,2702,1859,1871,2271,1526,1184,447,22,402,19,19,19,19,19,19,22,20,1849,1833,1390,2018,891,1553,23,213,-2229,1638,9257,-965,8234,-1898,93.38077692388671,154.97490963961118,28497
20,20,20,21,1567,1611,2379,2644,1843,1855,2289,1545,1249,498,24,440,19,19,19,19,18,19,23,20,1865,1855,1365,2042,959,1592,24,238,-2229,1638,9257,-965,8234,-1898,92.07014330927063,152.19705913729953,28121
20,20,20,21,1433,1481,1762,2595,1851,1832,2317,1534,1324,543,26,489,19,19,19,19,18,19,25,20,1898,1898,1318,2068,1018,1690,26,255,-2833,2736,9689,-1282,11798,-2325,90.2058919447766,148.63044896184368,27597
20,20,20,21,1236,1285,1245,2492,1834,1765,2334,1508,1418,592,27,542,19,19,19,19,19,19,27,20,1836,1939,1298,2106,1084,1833,29,270,-3338,3880,11679,-1285,15279,-3432,87.99895968790638,144.85127252461453,26915
20,20,20,21,1130,1110,764,2373,1816,1644,2308,1456,1475,615,28,602,19,19,19,19,19,19,29,20,1871,2056,1333,2116,1100,1921,29,285,-4197,3916,12135,-2199,19584,-5262,85.57906454559294,141.82851271121936,26276
20,20,20,21,1121,1029,141,2059,1771,1503,2114,1405,1493,608,31,714,19,19,19,20,19,19,31,21,1890,2055,1461,2104,1111,1941,29,342,-6849,6279,12804,-4465,24349,-7836,82.74310687326182,138.2546881207787,25170
20,20,20,22,1149,977,295,1689,1618,1462,1979,1246,1397,604,31,807,19,20,19,20,19,19,31,22,1930,1965,1578,2059,1193,1921,31,414,-6849,6279,12804,-4465,24349,-7836,81.37615872499593,138.0876768580257,24596
20,21,20,24,1046,968,32,1191,1362,1392,1738,905,1295,349,31,895,20,21,20,22,19,21,31,23,1972,1779,1668,1773,1360,1939,31,543,-10948,4275,20505,-5560,26668,-10011,77.96478185610935,135.7814344680662,22531
21,22,21,29,879,591,31,742,1012,1281,1529,741,1034,101,32,539,22,25,21,25,20,23,32,25,1781,1294,1421,988,1416,1860,31,547,-13388,7601,22147,-3420,26558,-10624,76.19080833700926,135.76830613145123,18136
25,24,24,36,853,193,31,247,329,1127,1214,120,890,26,31,30,25,27,25,30,23,26,32,30,1306,601,655,248,700,1278,31,146,-6090,6579,16391,-1037,23049,-10680,75.40258114225176,146.163488394491,10383
31,29,30,41,848,29,32,31,31,420,314,30,335,31,31,31,32,30,30,31,27,32,32,31,31,31,31,31,28,39,31,32,1177,9835,14143,1482,17884,-11081,93.67543859649123,190.39616899391336,2793
31,31,31,42,31,31,32,31,31,31,31,37,31,31,32,31,31,32,31,33,31,32,32,31,32,31,31,31,31,31,31,31,7806,8062,13923,6330,11601,-11706,92.39380530973452,232.7733529990167,1017
32,31,31,40,32,32,31,31,31,32,31,36,31,32,31,31,32,32,31,33,31,32,31,31,32,32,31,30,32,31,31,31,7806,8062,13923,6330,11601,-11706,92.39390962671904,232.6777996070727,1018
32,31,31,41,31,32,32,31,31,31,32,36,31,31,32,32,31,31,31,33,31,31,31,31,31,31,32,31,31,31,31,32,4312,13026,23277,8926,1156,-10321,92.4346116027532,231.97787610619469,1017
31,31,31,40,31,32,31,31,31,32,31,36,32,32,31,31,31,31,32,33,31,32,32,32,32,32,32,30,32,31,32,32,7346,3841,7873,5803,-8640,-6840,92.13124387855044,232.24387855044077,1021
31,31,32,41,31,31,32,31,32,32,32,36,31,31,31,31,31,32,31,33,31,32,32,31,31,32,32,31,31,31,31,31,3323,4104,5134,31,-10650,-3641,92.26889106967616,232.93621197252207,1019
32,32,31,40,32,32,32,31,31,31,32,37,31,31,31,31,31,32,31,34,31,32,31,31,31,32,31,30,31,32,31,31,2787,6231,4169,-1376,-10433,-662,92.50883218842002,232.9641805691855,1019
32,32,32,41,31,31,32,31,32,31,31,36,31,31,32,32,31,31,32,33,32,31,32,31,31,31,32,31,32,32,32,31,1624,6654,4961,2925,-11038,2286,92.27565982404693,232.61436950146629,1023
32,31,32,40,31,32,31,31,31,31,31,36,32,31,31,32,32,32,31,33,28,31,31,31,31,31,31,30,31,31,31,31,1624,6654,4961,2925,-11038,2286,92.63353115727004,232.09841740850644,1011
31,32,31,40,31,32,31,31,31,31,32,36,31,32,31,31,32,31,31,33,31,31,32,31,32,31,31,30,32,31,31,31,514,4496,7098,6767,-12484,5184,92.41231527093596,232.63103448275865,1015
31,31,32,40,124,31,31,31,32,32,31,31,30,31,32,31,32,32,31,31,31,32,32,31,31,31,31,31,31,31,31,31,-424,3509,8240,6020,-14282,7718,92.72207084468666,231.0835603996367,1101
32,31,31,40,155,32,31,32,31,31,31,30,31,31,31,32,31,32,31,30,30,32,32,31,31,31,31,30,30,31,31,31,-1544,4551,8989,4888,-15683,9308,93.04214729370008,229.84205856255545,1127
31,32,31,41,226,31,32,31,31,31,31,31,30,31,32,31,32,32,31,30,30,31,32,32,32,32,31,31,30,31,32,31,-3005,4767,10272,6519,-16817,9869,93.32585203657524,228.5286783042394,1203
31,31,32,41,271,31,32,32,31,31,31,30,30,32,32,32,31,31,31,31,31,31,32,31,31,31,31,30,31,31,31,31,-4621,3790,12178,8854,-17708,9696,93.73996789727128,227.50882825040128,1246
31,31,31,40,341,31,32,31,32,31,32,30,30,32,31,31,31,31,31,30,30,32,31,31,31,31,31,30,30,31,32,31,-4621,3790,12178,8854,-17708,9696,93.94813119755912,226.0171624713959,1311
32,31,31,41,447,31,32,32,32,31,32,30,30,31,31,32,31,31,31,31,29,32,31,31,31,31,32,30,30,32,32,32,-5860,3310,13927,9725,-18324,9067,94.44378074490513,224.1988756148981,1423
32,31,31,41,465,31,32,31,31,32,31,31,29,31,31,31,32,31,31,31,30,31,31,31,31,31,32,31,30,31,31,31,-7333,3618,15594,9325,-18583,8635,94.59185803757828,224.71363952679192,1437
31,31,31,41,473,31,31,32,31,31,31,31,30,32,32,31,32,31,32,30,29,31,32,32,31,32,32,31,30,32,32,31,-9155,4881,17712,8631,-18702,9210,94.4548275862069,224.0668965517241,1450
31,31,31,40,502,31,32,31,31,31,32,30,29,31,31,32,31,31,31,30,29,31,32,31,32,32,32,31,29,31,31,31,-12658,5398,19989,8423,-18518,11073,94.56152277362338,223.70598232494905,1471
31,31,31,41,553,31,31,31,31,31,32,29,30,31,31,31,32,31,32,30,29,32,32,31,32,31,32,30,29,31,32,32,-12658,5398,19989,8423,-18518,11073,94.69783464566927,223.51771653543307,1524
31,31,32,41,756,32,31,31,31,31,31,30,28,32,31,31,32,31,32,30,28,31,31,32,31,32,31,31,28,31,31,32,-17983,4510,21897,9386,-18235,12500,95.5635150812065,221.4040023201856,1724
31,32,32,40,952,31,31,31,32,31,31,30,28,32,31,32,31,32,31,31,28,31,31,32,31,32,31,31,28,31,31,32,-23291,505,16110,9334,-17210,11913,95.9994794377928,219.60203019260803,1921
31,31,31,40,1078,31,32,31,32,128,31,30,27,32,31,31,32,31,31,30,27,32,31,32,32,30,31,31,28,32,31,31,-27534,-3516,8222,8820,-13628,9128,97.1299672744273,216.4810659186536,2139
31,30,31,40,1207,31,167,31,31,310,175,30,27,31,30,32,31,30,30,31,27,32,31,32,32,30,31,31,27,32,31,31,-32764,-10091,2406,10313,-9098,5683,99.32298934998164,211.6549761292692,2723
32,29,30,41,1396,31,203,32,31,520,452,30,26,32,30,31,31,29,30,31,26,31,31,32,31,29,30,30,26,31,31,31,-32764,-17299,-2146,6293,-2004,2691,98.88631056625805,206.0558960887332,3426
31,30,30,41,1348,32,195,32,31,479,346,31,26,32,31,31,31,29,31,31,27,31,30,32,32,30,30,31,27,31,31,32,-32764,-17299,-2146,6293,-2004,2691,99.31033415841584,207.3118811881188,3232
31,31,31,41,1181,31,159,31,31,216,31,31,27,31,31,32,31,31,31,30,27,31,31,31,31,30,31,31,27,31,31,32,-26616,-9852,4332,-3150,5952,604,100.10925397472482,215.1875254790053,2453
31,31,31,41,1151,31,173,31,31,31,32,30,27,30,31,31,31,31,34,32,28,31,32,562,31,32,30,30,28,32,30,28,-1549,3894,28400,-6941,10078,-214,97.1685816876122,266.2964093357271,2785
26,31,983,32,304,33,202,24,26,31,22,25,28,29,30,24,1785,54,1601,1874,1113,788,33,2220,18,31,22,24,25,27,30,23,6123,-4860,-3031,-8316,4605,-42,98.05135440180588,429.5266973432888,11518
23,284,1366,26,24,253,298,22,22,28,19,22,23,24,28,21,2685,752,1896,2723,2404,2111,561,2927,19,28,21,21,22,23,28,21,-2140,-151,12697,-7637,9911,-2907,94.20096128170894,436.65791722296393,18725
22,922,1471,24,22,362,447,21,21,23,18,21,22,21,24,20,3013,1454,2025,3097,2815,2575,1821,3212,19,22,20,21,21,21,23,20,-3777,2059,18733,-3387,11478,-4134,93.02696700507614,431.6304357021996,23640
53,1544,1597,24,134,568,480,22,20,167,18,20,20,20,22,20,3043,1424,2043,3229,2750,2637,2347,3289,19,20,19,20,21,20,21,20,-3777,2059,18733,-3387,11478,-4134,94.25749483450936,424.89290865853184,25651
584,1553,1658,199,585,986,895,235,20,473,27,20,21,20,20,20,2696,1444,2022,3058,2528,2381,2260,3100,19,20,19,20,20,19,20,20,-4256,7168,15841,-3854,9159,-2159,98.11295527038054,404.6215043394407,26962
897,1493,1648,503,1031,1298,1211,420,75,587,109,19,20,20,20,20,2429,1483,1962,2853,2196,2210,2169,2969,40,19,19,20,20,19,20,19,-1826,2727,11005,-5702,5975,-938,100.81335825724352,388.1230498238551,27818
1020,1386,1610,731,1419,1398,1318,541,219,704,207,20,20,20,20,20,2151,1490,1925,2714,1966,2159,2133,2891,181,19,19,20,19,38,20,20,-1827,2616,9235,-4641,2764,-605,101.63384122739107,375.379988035752,28418
1066,1368,1563,833,1602,1412,1406,641,323,779,323,58,20,20,20,20,1932,1472,1835,2591,1857,2079,2078,2821,267,53,75,20,19,129,20,20,-1616,2386,9085,-2433,794,-336,101.8320277139475,365.53936007241833,28722
1054,1304,1480,872,1671,1385,1432,687,418,811,422,112,40,40,20,20,1845,1446,1748,2478,1806,2042,2077,2798,303,116,160,65,19,183,20,20,-1616,2386,9085,-2433,794,-336,101.27640686647749,358.7683429085623,28894
1037,1272,1428,892,1692,1388,1453,726,481,837,488,157,62,43,20,20,1740,1417,1687,2409,1751,2000,2058,2756,371,164,210,79,34,222,20,20,-1279,2205,8640,-1053,227,-215,100.99725236745697,353.2905405405405,28934
1033,1246,1400,907,1719,1407,1488,762,546,890,526,187,79,53,20,20,1616,1379,1650,2345,1699,1939,2033,2721,441,188,234,98,49,246,20,20,-1162,2334,8280,-361,248,-166,100.96690376713512,348.118331549325,28961
1041,1222,1374,927,1765,1448,1535,809,597,929,577,228,96,55,20,20,1514,1341,1601,2259,1598,1880,1975,2650,480,210,257,112,53,256,20,20,-1154,2339,8248,-102,379,-174,101.2531088711074,342.7639682704631,28869
1050,1209,1359,970,1832,1504,1591,864,660,963,615,259,121,63,20,21,1396,1306,1553,2170,1491,1791,1904,2586,517,226,281,117,65,278,20,20,-1170,2341,8152,76,533,-181,101.70274443133717,336.753799181181,28822
1068,1197,1349,1014,1922,1570,1653,918,704,1005,652,289,135,68,20,21,1294,1246,1503,2079,1365,1700,1832,2514,560,254,301,135,71,291,20,20,-1170,2452,8064,77,583,-181,102.2157455683003,330.64023288147376,28770
1081,1179,1334,1066,2008,1646,1724,977,750,1041,691,319,153,73,20,21,1180,1196,1440,1952,1241,1591,1735,2427,598,284,333,154,69,312,20,20,-1170,2452,8064,77,583,-181,102.77656713811768,323.8774227344159,28635
1076,1156,1314,1117,2090,1722,1805,1038,800,1087,734,350,180,75,20,21,1083,1146,1379,1838,1104,1467,1626,2329,645,304,369,167,83,327,20,20,-1177,2412,7977,-18,569,-199,103.40132317843606,316.6873508353222,28492
1051,1132,1289,1157,2161,1794,1878,1141,873,1130,773,396,212,76,20,21,977,1088,1329,1723,994,1352,1528,2202,690,332,393,190,93,346,20,21,-1215,2400,7977,-125,544,-238,103.98920090198013,309.0186209569445,28382
1029,1115,1266,1196,2219,1862,1938,1207,941,1180,810,429,246,87,21,21,864,1035,1276,1634,894,1256,1457,2113,739,351,429,199,99,379,20,21,-1265,2347,7927,-180,437,-268,104.4187166907846,302.16307838915753,28333
1020,1096,1244,1230,2246,1896,1976,1260,997,1224,840,455,295,87,21,28,760,992,1241,1547,817,1184,1405,2039,786,372,452,210,111,398,20,21,-1234,2290,7954,-222,349,-270,104.6224796604174,296.40679165192785,28270
1016,1064,1211,1256,2237,1925,2009,1312,1055,1279,871,499,371,91,21,35,675,954,1213,1447,734,1112,1355,1938,828,395,482,230,123,439,20,21,-1254,2242,7995,-171,312,-238,104.73127082004396,289.97285420653486,28218
1009,1035,1165,1298,2255,1941,2065,1383,1115,1320,911,555,419,107,21,43,570,917,1173,1356,663,1045,1317,1876,875,420,516,245,159,465,21,22,-1254,2242,7995,-171,312,-238,104.81026801499186,283.4882257266105,28282
984,1012,1132,1309,2263,1979,2111,1486,1192,1357,969,609,477,125,21,48,491,883,1135,1273,607,983,1278,1764,945,466,553,272,173,497,20,22,-1196,2304,8094,-129,319,-218,104.83659797439864,276.7175938950626,28436
951,977,1103,1320,2271,1999,2166,1579,1273,1379,1015,679,508,137,21,55,386,839,1091,1162,550,906,1219,1659,1034,541,586,336,201,568,20,22,-812,2618,7606,-105,330,-197,104.60268623262004,268.95284208314365,28553
924,933,1057,1318,2297,2026,2220,1676,1325,1399,1065,735,539,137,21,66,306,800,1044,1055,483,842,1169,1550,1088,600,626,394,241,617,20,23,-1319,2260,8059,-165,390,-278,104.4130647643027,261.8132081409988,28596
909,905,1010,1339,2298,2042,2187,1814,1366,1422,1119,804,585,154,21,67,212,749,988,915,404,745,1102,1390,1160,659,685,450,270,685,21,24,-1309,2461,7956,-158,509,-291,104.27646398371986,253.24090382793585,28501
872,867,949,1339,2338,2072,2373,1979,1449,1467,1205,894,626,179,21,90,126,691,903,750,291,615,984,1190,1224,727,753,535,305,776,21,30,-1309,2461,7956,-158,509,-291,104.4754896826228,241.86562969170072,28641
821,801,882,1343,2400,2149,2523,2184,1501,1538,1299,1018,695,191,21,106,55,601,802,533,128,432,808,922,1314,820,821,628,353,857,21,27,-1261,2240,8166,-174,739,-346,104.91312862838356,227.61799678254175,28594
735,717,789,1345,2426,2187,2616,2406,1557,1608,1422,1162,746,218,21,128,19,498,671,253,27,259,639,625,1396,939,915,771,403,979,21,36,-1328,2265,8121,-228,1051,-449,104.74642531716547,212.2977325296138,28534
620,597,639,1323,2390,2214,2844,2648,1627,1704,1594,1248,797,255,21,166,19,386,531,64,19,122,406,311,1460,1085,1035,916,442,1059,21,49,-1436,2274,8212,-316,1456,-557,104.5046833496435,198.072784146512,28612
502,403,383,1226,2323,2224,3082,2840,1687,1847,1838,1288,849,303,22,230,19,239,329,20,19,19,89,36,1537,1274,1213,1100,514,1133,22,71,-1489,2552,8351,-497,2096,-717,103.58740978348035,182.76430389456436,28681
350,206,115,1077,2200,2157,3006,2861,1750,1991,2102,1328,914,324,30,295,19,108,117,19,19,19,21,20,1610,1424,1358,1247,600,1199,31,97,-1451,2453,8850,-515,3267,-1219,101.2568847417348,172.31573705179284,28614
208,52,29,856,2069,2072,42,2816,1819,2067,2233,1402,987,360,31,335,19,40,19,19,19,19,33,20,1698,1552,1412,1407,682,1272,30,119,-1451,2453,8850,-515,3267,-1219,94.64255186883209,157.50979097054935,25738
60,20,20,645,1921,1967,3097,2782,1880,2066,2243,1460,1034,408,22,373,19,19,19,19,18,19,21,20,1769,1609,1404,1567,798,1338,22,155,-2001,2326,9238,-592,5182,-1567,97.72110779482196,161.77281876865413,28814
20,20,20,335,1801,1880,2980,2725,1906,2035,2267,1579,1102,455,22,434,19,19,19,19,19,19,21,20,1783,1656,1383,1761,871,1389,22,194,-2219,2286,8335,-603,7057,-1867,96.16513283556174,157.98246223302658,28795
20,20,20,24,1657,1775,2771,2638,1907,1996,2289,1665,1187,511,23,491,19,19,19,19,18,19,22,20,1792,1694,1317,1897,952,1439,23,235,-2326,3018,10040,-1019,10357,-2338,94.58139167660887,153.98475331602216,28498
20,20,20,21,1511,1675,2333,2599,1901,1960,2319,1629,1251,547,24,533,19,19,19,19,19,19,23,20,1806,1746,1312,1930,1015,1497,25,246,-1933,3015,9964,-1207,14666,-3122,93.04027120333132,151.37212157881623,28097
20,20,20,21,1366,1531,1792,2544,1877,1929,2323,1618,1323,565,26,575,19,19,19,19,19,19,25,20,1815,1783,1286,1945,1070,1627,26,248,-3220,3974,11646,-1041,19082,-4572,91.237994838053,148.17059871314842,27509
20,20,20,21,1271,1338,1456,2424,1850,1874,2275,1579,1374,592,27,623,19,19,19,19,19,19,26,20,1835,1798,1347,1974,1116,1748,27,283,-3220,3974,11646,-1041,19082,-4572,89.3040625462073,145.54857311843855,27052
20,20,20,22,1226,1237,1018,2129,1822,1818,2034,1504,1382,563,30,751,19,20,19,19,19,19,30,20,1797,1768,1459,1970,1158,1780,31,363,-4606,5095,13169,-2782,23501,-6650,87.14006976655038,142.55855406907656,26087
20,20,20,23,1212,1195,613,1690,1689,1716,1921,1340,1279,604,30,898,20,20,19,20,18,19,30,21,1822,1727,1608,1881,1253,1704,30,508,-8692,5882,18288,-4375,26836,-8781,84.56103323988786,139.73614337204646,24970
20,21,20,26,1091,1206,154,1220,1452,1546,1654,983,1154,339,31,973,20,21,20,23,19,20,31,22,1818,1622,1675,1519,1356,1666,31,682,-13528,6679,22748,-3326,26901,-9785,81.195720971696,136.98065522620905,22435
22,22,21,31,986,832,31,878,1185,1444,1437,664,1028,61,31,413,22,24,22,26,20,23,32,25,1554,1193,1430,781,1277,1599,32,671,-11471,7871,20931,-910,24951,-9870,79.57725767525397,138.6509513386092,17817
26,25,25,39,967,298,31,378,248,1245,1080,30,858,26,30,30,27,27,26,31,23,27,31,30,871,420,518,31,635,1056,32,145,-2093,7456,13341,308,20271,-10394,81.21179581264839,149.891323116771,9266
31,29,31,41,822,30,31,31,31,547,43,30,312,30,31,31,31,29,32,31,28,31,31,31,31,30,31,31,29,31,31,32,-2093,7456,13341,308,20271,-10394,96.9633346198379,192.21265920494017,2591
31,32,32,41,31,31,32,32,31,32,32,36,32,31,31,31,32,31,32,30,31,31,31,32,32,31,31,30,32,31,31,32,7454,10491,12283,3213,14607,-11061,92.40520628683691,232.12426326129665,1018
31,31,31,41,31,32,31,31,32,31,32,36,31,31,31,31,31,31,32,32,31,31,31,31,32,32,31,30,31,31,31,32,1525,12864,22181,7017,10230,-11883,92.34072978303747,232.0680473372781,1014
31,32,31,41,32,31,32,31,31,31,31,36,32,31,32,31,32,31,31,33,31,31,31,31,32,31,32,31,31,31,31,31,9770,4118,14411,7125,-4359,-8343,92.37905604719764,232.47590953785644,1017
31,31,31,41,31,31,32,32,31,31,32,37,32,31,31,31,32,31,31,34,31,31,31,31,31,32,31,31,31,31,32,31,4578,2847,6463,1985,-11429,-5130,92.40766208251472,232.38064833005893,1018
32,31,32,40,31,32,31,31,32,31,31,36,31,31,31,32,31,31,31,33,31,31,31,32,31,31,31,31,31,31,32,31,4578,2847,6463,1985,-11429,-5130,92.41576354679805,232.5049261083744,1015
31,32,32,40,31,32,32,31,31,31,31,36,31,32,32,31,31,32,32,33,31,31,31,31,31,32,31,30,32,32,31,31,3537,4286,4209,-1661,-12044,-2560,92.4533398821218,232.52897838899804,1018
32,31,31,42,31,32,31,31,32,32,31,36,32,31,31,32,31,31,31,34,32,32,31,31,32,31,32,30,31,31,31,31,1971,6074,4640,-434,-12499,256,92.48088235294118,232.7779411764706,1020
31,31,31,40,31,32,32,31,31,31,31,37,31,31,32,31,31,31,31,33,31,32,31,32,32,31,32,30,31,32,31,31,852,5704,5660,3410,-13469,3149,92.39862204724407,232.5103346456693,1016
31,31,31,41,32,31,32,31,31,31,32,37,31,31,31,32,31,31,31,33,31,31,32,32,31,31,31,30,31,31,31,31,-100,4058,7217,5200,-14760,5839,92.4896551724138,232.65812807881773,1015
31,31,32,41,118,31,32,31,31,31,32,30,31,31,31,31,31,31,31,31,30,32,31,31,31,31,32,31,31,31,31,31,-1125,4135,8472,4748,-15891,7783,92.63873626373626,230.6492673992674,1092
32,32,31,41,143,31,31,31,31,31,32,30,31,31,31,31,31,31,31,30,31,31,31,31,31,32,31,31,31,32,32,31,-1125,4135,8472,4748,-15891,7783,92.68112701252235,229.66368515205724,1118
31,32,31,41,155,31,31,31,31,32,32,30,31,31,31,32,31,32,31,31,31,31,31,31,31,32,31,31,31,32,31,31,-2303,4737,9764,5373,-16936,8838,92.83789752650176,229.5631625441696,1132
31,31,31,41,249,31,32,31,31,31,31,31,30,31,31,31,32,31,31,31,31,32,31,31,32,31,32,31,31,31,32,31,-3862,4035,11467,7360,-18018,9109,93.38408163265306,228.08244897959185,1225
32,31,31,42,358,31,31,32,31,31,31,30,30,32,32,31,32,31,32,30,30,32,32,32,32,31,32,30,29,31,31,31,-5526,3413,13072,8469,-18764,8736,94.13943028485755,226.66491754122936,1334
31,31,32,41,421,31,31,31,31,31,31,30,30,32,31,32,31,32,32,30,30,32,31,31,31,31,31,30,30,31,31,31,-7226,3919,15034,8452,-18966,8121,94.36817528735632,225.29310344827587,1392
31,32,31,41,432,31,31,31,32,32,31,31,30,31,31,31,31,32,32,31,30,32,33,32,31,31,31,30,31,31,31,31,-9658,5150,16286,7785,-19035,8466,94.36479772888572,225.61071682044,1409
31,31,31,41,436,32,31,31,32,31,31,30,30,31,31,32,31,31,31,30,30,32,31,31,31,32,31,30,30,31,31,31,-9658,5150,16286,7785,-19035,8466,94.3954480796586,224.676386913229,1406
31,31,32,41,458,32,31,31,31,31,32,30,30,31,32,32,32,32,32,30,30,32,32,32,31,31,31,31,30,31,31,32,-13822,6446,18222,6953,-18604,10598,94.43871866295264,224.991643454039,1436
31,31,32,41,542,31,32,31,31,31,31,31,29,32,31,31,31,31,32,31,29,31,31,31,31,32,31,31,29,32,32,31,-19115,6098,19639,7552,-17855,12954,94.83883751651256,223.40059445178332,1514
31,31,31,41,764,31,32,31,31,31,31,30,28,31,32,31,31,32,31,31,28,31,31,31,32,32,32,31,28,31,32,31,-23757,2889,16089,9001,-16468,13512,95.47344110854505,221.04792147806003,1732
31,31,31,42,966,31,31,31,32,30,31,31,27,31,31,31,32,36,31,30,28,31,31,31,31,31,31,31,28,32,31,31,-27109,-2571,9020,9646,-13168,12136,96.0496380558428,219.9092554291624,1934
